Wavelengths (microns) Transmittance (%)
2.000	0.050
2.001	0.150
2.002	0.240
2.003	0.220
2.003	0.190
2.004	0.180
2.005	0.170
2.006	0.150
2.006	0.100
2.007	0.070
2.008	0.050
2.009	0.080
2.010	0.160
2.010	0.150
2.011	0.070
2.012	0.050
2.013	0.070
2.013	0.080
2.014	0.080
2.015	0.080
2.016	0.030
2.017	-0.030
2.017	-0.100
2.018	0.000
2.019	0.150
2.020	0.190
2.020	0.110
2.021	0.010
2.022	0.000
2.023	0.090
2.024	0.150
2.024	0.170
2.025	0.190
2.026	0.140
2.027	0.120
2.028	0.180
2.028	0.200
2.029	0.170
2.030	0.090
2.031	0.000
2.032	-0.040
2.032	0.000
2.033	0.070
2.034	0.130
2.035	0.140
2.036	0.130
2.036	0.130
2.037	0.120
2.038	0.100
2.039	0.100
2.040	0.100
2.040	0.080
2.041	0.100
2.042	0.100
2.043	0.040
2.044	0.020
2.044	0.140
2.045	0.230
2.046	0.210
2.047	0.140
2.048	0.060
2.048	0.090
2.049	0.160
2.050	0.160
2.051	0.090
2.052	0.030
2.052	0.030
2.053	0.070
2.054	0.150
2.055	0.240
2.056	0.230
2.057	0.140
2.057	0.100
2.058	0.070
2.059	0.020
2.060	0.040
2.061	0.140
2.061	0.190
2.062	0.100
2.063	0.010
2.064	0.050
2.065	0.090
2.066	0.090
2.066	0.060
2.067	0.040
2.068	0.030
2.069	0.030
2.070	0.060
2.071	0.090
2.071	0.070
2.072	0.070
2.073	0.100
2.074	0.100
2.075	0.060
2.076	0.040
2.076	0.040
2.077	0.080
2.078	0.160
2.079	0.170
2.080	0.090
2.081	0.030
2.081	0.020
2.082	0.080
2.083	0.140
2.084	0.090
2.085	0.040
2.086	0.090
2.086	0.160
2.087	0.200
2.088	0.200
2.089	0.120
2.090	0.050
2.091	0.080
2.091	0.060
2.092	0.000
2.093	0.000
2.094	-0.010
2.095	0.020
2.096	0.050
2.096	0.080
2.097	0.100
2.098	0.100
2.099	0.080
2.100	0.080
2.101	0.070
2.102	0.030
2.102	-0.020
2.103	0.000
2.104	0.040
2.105	0.010
2.106	0.030
2.107	0.120
2.108	0.110
2.108	0.060
2.109	0.090
2.110	0.150
2.111	0.200
2.112	0.220
2.113	0.170
2.114	0.090
2.114	0.080
2.115	0.090
2.116	0.080
2.117	0.040
2.118	-0.020
2.119	-0.010
2.120	0.030
2.121	0.030
2.121	0.100
2.122	0.180
2.123	0.170
2.124	0.100
2.125	0.010
2.126	-0.030
2.127	0.010
2.127	0.050
2.128	0.080
2.129	0.110
2.130	0.140
2.131	0.160
2.132	0.140
2.133	0.080
2.134	0.000
2.134	0.010
2.135	0.050
2.136	0.020
2.137	0.030
2.138	0.080
2.139	0.100
2.140	0.100
2.141	0.080
2.142	0.030
2.142	0.010
2.143	0.090
2.144	0.140
2.145	0.110
2.146	0.070
2.147	0.020
2.148	-0.040
2.149	-0.020
2.150	0.070
2.150	0.170
2.151	0.210
2.152	0.140
2.153	0.030
2.154	0.010
2.155	0.070
2.156	0.070
2.157	0.000
2.158	-0.030
2.158	0.010
2.159	0.060
2.160	0.060
2.161	0.060
2.162	0.100
2.163	0.060
2.164	-0.010
2.165	0.010
2.166	0.050
2.167	0.060
2.168	0.090
2.168	0.130
2.169	0.120
2.170	0.090
2.171	0.050
2.172	0.030
2.173	0.040
2.174	0.100
2.175	0.100
2.176	0.030
2.177	-0.020
2.178	-0.010
2.178	0.100
2.179	0.160
2.180	0.120
2.181	0.100
2.182	0.080
2.183	0.060
2.184	0.030
2.185	0.020
2.186	0.000
2.187	0.030
2.188	0.090
2.189	0.120
2.189	0.080
2.190	0.020
2.191	0.000
2.192	0.020
2.193	0.040
2.194	0.030
2.195	0.040
2.196	0.070
2.197	0.100
2.198	0.110
2.199	0.070
2.200	0.030
2.201	0.030
2.202	0.030
2.203	0.020
2.203	0.020
2.204	0.040
2.205	0.070
2.206	0.070
2.207	0.040
2.208	0.030
2.209	0.050
2.210	0.070
2.211	0.090
2.212	0.130
2.213	0.160
2.214	0.130
2.215	0.090
2.216	0.030
2.217	0.000
2.218	0.050
2.219	0.080
2.220	0.090
2.220	0.100
2.221	0.100
2.222	0.080
2.223	0.040
2.224	-0.010
2.225	-0.010
2.226	0.040
2.227	0.090
2.228	0.080
2.229	0.070
2.230	0.060
2.231	0.040
2.232	0.000
2.233	0.010
2.234	0.080
2.235	0.100
2.236	0.060
2.237	0.020
2.238	0.020
2.239	0.010
2.240	0.020
2.241	0.040
2.242	0.080
2.243	0.100
2.244	0.110
2.244	0.130
2.245	0.120
2.246	0.070
2.247	0.010
2.248	-0.010
2.249	0.030
2.250	0.080
2.251	0.090
2.252	0.060
2.253	0.050
2.254	0.060
2.255	0.050
2.256	0.010
2.257	0.000
2.258	0.080
2.259	0.140
2.260	0.110
2.261	0.040
2.262	0.040
2.263	0.070
2.264	0.070
2.265	0.040
2.266	0.030
2.267	0.030
2.268	0.010
2.269	0.030
2.270	0.090
2.271	0.120
2.272	0.070
2.273	0.010
2.274	-0.010
2.275	0.000
2.276	0.020
2.277	0.030
2.278	0.030
2.279	0.070
2.280	0.120
2.281	0.140
2.282	0.100
2.283	0.060
2.284	0.050
2.285	0.030
2.286	0.000
2.287	0.010
2.288	0.020
2.289	0.050
2.290	0.050
2.291	0.000
2.292	-0.020
2.293	0.010
2.294	0.040
2.295	0.090
2.296	0.110
2.297	0.100
2.298	0.070
2.299	0.070
2.300	0.090
2.301	0.130
2.302	0.140
2.303	0.100
2.304	0.080
2.305	0.070
2.306	0.060
2.307	0.070
2.308	0.110
2.310	0.120
2.311	0.100
2.312	0.090
2.313	0.070
2.314	0.030
2.315	0.030
2.316	0.060
2.317	0.050
2.318	0.080
2.319	0.110
2.320	0.090
2.321	0.040
2.322	0.010
2.323	0.030
2.324	0.060
2.325	0.030
2.326	0.000
2.327	0.010
2.328	0.030
2.329	0.010
2.330	0.010
2.331	0.050
2.332	0.100
2.333	0.100
2.334	0.070
2.336	0.010
2.337	-0.010
2.338	-0.010
2.339	0.000
2.340	0.020
2.341	0.000
2.342	0.040
2.343	0.050
2.344	0.030
2.345	0.040
2.346	0.060
2.347	0.080
2.348	0.090
2.349	0.100
2.350	0.080
2.351	0.060
2.352	0.060
2.354	0.050
2.355	0.040
2.356	0.030
2.357	0.010
2.358	0.000
2.359	-0.010
2.360	0.000
2.361	0.020
2.362	0.040
2.363	0.030
2.364	0.010
2.365	0.030
2.366	0.050
2.368	0.080
2.369	0.110
2.370	0.110
2.371	0.090
2.372	0.050
2.373	0.030
2.374	0.030
2.375	0.040
2.376	0.040
2.377	0.040
2.378	0.040
2.379	0.040
2.381	0.020
2.382	0.000
2.383	0.020
2.384	0.040
2.385	0.050
2.386	0.060
2.387	0.040
2.388	0.000
2.389	-0.010
2.390	0.000
2.392	0.020
2.393	0.050
2.394	0.090
2.395	0.080
2.396	0.040
2.397	0.030
2.398	0.030
2.399	0.030
2.400	0.030
2.402	0.030
2.403	0.020
2.404	0.000
2.405	0.000
2.406	0.010
2.407	0.010
2.408	0.030
2.409	0.060
2.410	0.080
2.412	0.060
2.413	0.030
2.414	0.030
2.415	0.050
2.416	0.050
2.417	0.040
2.418	0.020
2.419	-0.010
2.421	0.010
2.422	0.050
2.423	0.070
2.424	0.060
2.425	0.050
2.426	0.060
2.427	0.070
2.429	0.040
2.430	0.000
2.431	0.000
2.432	0.020
2.433	0.050
2.434	0.080
2.435	0.070
2.437	0.050
2.438	0.030
2.439	0.020
2.440	0.020
2.441	0.020
2.442	0.010
2.443	0.000
2.445	0.010
2.446	0.040
2.447	0.060
2.448	0.050
2.449	0.030
2.450	0.020
2.452	0.040
2.453	0.040
2.454	0.040
2.455	0.040
2.456	0.020
2.457	0.010
2.459	0.010
2.460	0.020
2.461	0.030
2.462	0.040
2.463	0.040
2.464	0.030
2.466	0.030
2.467	0.030
2.468	0.020
2.469	0.020
2.470	0.040
2.471	0.040
2.473	0.030
2.474	0.000
2.475	-0.010
2.476	-0.010
2.477	0.020
2.478	0.030
2.480	0.040
2.481	0.030
2.482	0.030
2.483	0.050
2.484	0.060
2.486	0.050
2.487	0.030
2.488	0.020
2.489	0.030
2.490	0.030
2.492	0.030
2.493	0.040
2.494	0.050
2.495	0.060
2.496	0.060
2.498	0.040
2.499	0.020
2.500	0.000
2.501	0.000
2.502	0.020
2.504	0.010
2.505	0.000
2.506	0.020
2.507	0.050
2.508	0.060
2.510	0.040
2.511	0.010
2.512	0.000
2.513	0.030
2.515	0.050
2.516	0.030
2.517	0.010
2.518	-0.010
2.519	0.010
2.521	0.030
2.522	0.050
2.523	0.050
2.524	0.040
2.526	0.030
2.527	0.020
2.528	0.010
2.529	0.020
2.531	0.020
2.532	0.000
2.533	0.000
2.534	0.010
2.535	0.030
2.537	0.040
2.538	0.050
2.539	0.040
2.540	0.050
2.542	0.060
2.543	0.050
2.544	0.030
2.545	0.030
2.547	0.030
2.548	0.020
2.549	0.030
2.550	0.040
2.552	0.030
2.553	0.030
2.554	0.040
2.555	0.040
2.557	0.030
2.558	0.010
2.559	0.020
2.561	0.040
2.562	0.050
2.563	0.050
2.564	0.040
2.566	0.030
2.567	0.020
2.568	0.010
2.569	0.020
2.571	0.040
2.572	0.050
2.573	0.040
2.575	0.050
2.576	0.060
2.577	0.030
2.578	0.030
2.580	0.050
2.581	0.060
2.582	0.060
2.584	0.040
2.585	0.010
2.586	0.000
2.587	0.020
2.589	0.030
2.590	0.030
2.591	0.020
2.593	0.000
2.594	0.020
2.595	0.030
2.596	0.030
2.598	0.020
2.599	0.010
2.600	0.020
2.602	0.040
2.603	0.030
2.604	0.000
2.606	0.010
2.607	0.050
2.608	0.060
2.610	0.040
2.611	0.030
2.612	0.030
2.613	0.020
2.615	0.010
2.616	0.020
2.617	0.040
2.619	0.050
2.620	0.040
2.621	0.010
2.623	0.010
2.624	0.020
2.625	0.030
2.627	0.050
2.628	0.050
2.629	0.050
2.631	0.030
2.632	0.030
2.633	0.030
2.635	0.030
2.636	0.020
2.637	0.010
2.639	0.010
2.640	0.010
2.641	0.020
2.643	0.030
2.644	0.030
2.646	0.030
2.647	0.040
2.648	0.040
2.650	0.030
2.651	0.010
2.652	0.000
2.654	0.020
2.655	0.040
2.656	0.050
2.658	0.040
2.659	0.050
2.660	0.060
2.662	0.060
2.663	0.030
2.665	0.000
2.666	0.000
2.667	0.000
2.669	0.010
2.670	0.020
2.671	0.040
2.673	0.050
2.674	0.060
2.676	0.060
2.677	0.040
2.678	0.020
2.680	0.010
2.681	0.000
2.682	-0.010
2.684	0.000
2.685	0.010
2.687	0.010
2.688	0.010
2.689	0.010
2.691	0.010
2.692	0.000
2.694	0.010
2.695	0.020
2.696	0.030
2.698	0.010
2.699	-0.010
2.701	0.000
2.702	0.020
2.703	0.030
2.705	0.030
2.706	0.040
2.708	0.050
2.709	0.050
2.711	0.040
2.712	0.020
2.713	0.020
2.715	0.020
2.716	0.020
2.718	0.010
2.719	0.010
2.720	0.020
2.722	0.030
2.723	0.030
2.725	0.020
2.726	0.000
2.728	-0.010
2.729	0.000
2.731	0.020
2.732	0.030
2.733	0.030
2.735	0.020
2.736	0.010
2.738	0.010
2.739	0.020
2.741	0.020
2.742	0.010
2.744	0.010
2.745	0.020
2.746	0.030
2.748	0.030
2.749	0.020
2.751	0.030
2.752	0.030
2.754	0.020
2.755	0.010
2.757	0.010
2.758	0.010
2.760	0.010
2.761	0.000
2.763	-0.010
2.764	-0.010
2.765	0.000
2.767	0.010
2.768	0.010
2.770	0.010
2.771	0.030
2.773	0.040
2.774	0.050
2.776	0.060
2.777	0.070
2.779	0.060
2.780	0.040
2.782	0.030
2.783	0.010
2.785	0.000
2.786	0.000
2.788	0.020
2.789	0.030
2.791	0.030
2.792	0.030
2.794	0.040
2.795	0.040
2.797	0.040
2.798	0.020
2.800	0.010
2.801	0.010
2.803	0.030
2.804	0.030
2.806	0.020
2.807	0.020
2.809	0.010
2.810	0.010
2.812	0.010
2.814	0.030
2.815	0.040
2.817	0.020
2.818	0.010
2.820	0.010
2.821	0.020
2.823	0.040
2.824	0.050
2.826	0.040
2.827	0.030
2.829	0.020
2.830	0.010
2.832	0.010
2.834	0.030
2.835	0.030
2.837	0.020
2.838	0.020
2.840	0.010
2.841	0.000
2.843	0.010
2.844	0.010
2.846	0.020
2.848	0.010
2.849	0.000
2.851	0.000
2.852	0.000
2.854	0.020
2.855	0.030
2.857	0.030
2.859	0.030
2.860	0.030
2.862	0.030
2.863	0.020
2.865	0.010
2.866	0.010
2.868	0.020
2.870	0.020
2.871	0.020
2.873	0.030
2.874	0.030
2.876	0.030
2.878	0.020
2.879	0.010
2.881	0.030
2.882	0.040
2.884	0.030
2.886	0.020
2.887	0.000
2.889	-0.010
2.890	-0.010
2.892	0.010
2.894	0.030
2.895	0.040
2.897	0.040
2.899	0.040
2.900	0.040
2.902	0.040
2.903	0.030
2.905	0.020
2.907	0.010
2.908	0.010
2.910	0.020
2.912	0.020
2.913	0.010
2.915	0.010
2.916	0.010
2.918	0.020
2.920	0.010
2.921	0.010
2.923	0.020
2.925	0.020
2.926	0.020
2.928	0.020
2.930	0.020
2.931	0.020
2.933	0.020
2.935	0.010
2.936	0.000
2.938	0.010
2.940	0.030
2.941	0.040
2.943	0.030
2.945	0.010
2.946	0.010
2.948	0.020
2.950	0.030
2.951	0.030
2.953	0.020
2.955	0.010
2.956	0.000
2.958	0.000
2.960	-0.010
2.961	0.000
2.963	0.020
2.965	0.030
2.967	0.020
2.968	0.010
2.970	0.010
2.972	0.020
2.973	0.020
2.975	0.020
2.977	0.000
2.978	-0.010
2.980	-0.010
2.982	0.000
2.984	0.020
2.985	0.030
2.987	0.030
2.989	0.020
2.991	0.020
2.992	0.020
2.994	0.020
2.996	0.010
2.997	0.010
2.999	0.000
3.001	0.010
3.003	0.030
3.004	0.040
3.006	0.030
3.008	0.020
3.010	0.010
3.011	0.000
3.013	0.000
3.015	0.020
3.017	0.030
3.018	0.020
3.020	0.010
3.022	0.010
3.024	0.020
3.025	0.020
3.027	0.010
3.029	0.010
3.031	0.020
3.032	0.040
3.034	0.040
3.036	0.030
3.038	0.010
3.040	0.000
3.041	-0.010
3.043	-0.010
3.045	0.000
3.047	0.000
3.049	0.000
3.050	-0.010
3.052	-0.010
3.054	0.010
3.056	0.020
3.058	0.020
3.059	0.010
3.061	0.010
3.063	0.010
3.065	0.010
3.067	0.010
3.068	0.010
3.070	0.010
3.072	0.010
3.074	0.010
3.076	0.010
3.078	0.010
3.079	0.020
3.081	0.010
3.083	0.010
3.085	0.010
3.087	0.010
3.089	0.010
3.090	0.020
3.092	0.020
3.094	0.010
3.096	0.010
3.098	0.010
3.100	-0.010
3.101	-0.010
3.103	-0.010
3.105	0.000
3.107	0.010
3.109	0.020
3.111	0.020
3.113	0.020
3.115	0.030
3.116	0.020
3.118	0.020
3.120	0.010
3.122	0.010
3.124	0.000
3.126	0.000
3.128	0.010
3.130	0.010
3.131	0.010
3.133	0.010
3.135	0.010
3.137	0.010
3.139	0.010
3.141	0.020
3.143	0.020
3.145	0.010
3.147	0.010
3.149	0.010
3.150	0.010
3.152	0.010
3.154	0.010
3.156	0.020
3.158	0.020
3.160	0.010
3.162	0.010
3.164	0.020
3.166	0.020
3.168	0.010
3.170	-0.010
3.172	0.000
3.174	0.020
3.176	0.040
3.178	0.040
3.179	0.020
3.181	0.010
3.183	0.010
3.185	0.020
3.187	0.020
3.189	0.020
3.191	0.020
3.193	0.020
3.195	0.010
3.197	-0.010
3.199	-0.010
3.201	0.000
3.203	0.020
3.205	0.030
3.207	0.020
3.209	0.010
3.211	0.020
3.213	0.030
3.215	0.030
3.217	0.020
3.219	0.020
3.221	0.010
3.223	0.000
3.225	0.000
3.227	0.010
3.229	0.010
3.231	0.010
3.233	0.000
3.235	0.000
3.237	0.010
3.239	0.010
3.241	0.010
3.243	0.010
3.245	0.010
3.247	0.000
3.249	0.000
3.251	0.000
3.253	0.010
3.255	0.010
3.257	0.020
3.259	0.020
3.262	0.010
3.264	0.000
3.266	0.010
3.268	0.020
3.270	0.020
3.272	0.020
3.274	0.010
3.276	0.010
3.278	0.000
3.280	0.000
3.282	0.020
3.284	0.020
3.286	0.020
3.288	0.010
3.291	0.010
3.293	0.000
3.295	0.000
3.297	0.020
3.299	0.030
3.301	0.020
3.303	0.010
3.305	0.000
3.307	0.010
3.309	0.010
3.312	0.010
3.314	0.010
3.316	0.020
3.318	0.020
3.320	0.020
3.322	0.020
3.324	0.020
3.326	0.010
3.329	0.000
3.331	0.010
3.333	0.020
3.335	0.010
3.337	0.010
3.339	0.020
3.341	0.020
3.344	0.010
3.346	0.000
3.348	0.010
3.350	0.010
3.352	0.020
3.354	0.020
3.357	0.020
3.359	0.010
3.361	0.010
3.363	0.000
3.365	0.010
3.367	0.020
3.370	0.020
3.372	0.010
3.374	0.010
3.376	0.020
3.378	0.020
3.381	0.010
3.383	0.000
3.385	0.010
3.387	0.020
3.389	0.020
3.392	0.020
3.394	0.020
3.396	0.020
3.398	0.020
3.401	0.020
3.403	0.020
3.405	0.010
3.407	0.000
3.410	-0.010
3.412	-0.020
3.414	-0.010
3.416	0.010
3.419	0.010
3.421	0.020
3.423	0.030
3.425	0.020
3.428	0.020
3.430	0.020
3.432	0.010
3.434	0.010
3.437	0.010
3.439	0.000
3.441	0.000
3.444	0.010
3.446	0.010
3.448	0.020
3.450	0.010
3.453	0.010
3.455	0.010
3.457	0.010
3.460	0.010
3.462	0.010
3.464	0.010
3.467	0.000
3.469	0.000
3.471	0.000
3.474	0.000
3.476	0.000
3.478	0.000
3.481	0.000
3.483	0.000
3.485	0.010
3.488	0.010
3.490	0.010
3.492	0.010
3.495	0.010
3.497	0.010
3.499	0.010
3.502	0.010
3.504	0.010
3.506	0.010
3.509	0.010
3.511	0.010
3.514	0.010
3.516	0.010
3.518	0.000
3.521	0.000
3.523	0.010
3.526	0.020
3.528	0.020
3.530	0.010
3.533	0.020
3.535	0.030
3.538	0.020
3.540	0.010
3.542	0.010
3.545	0.010
3.547	0.000
3.550	0.010
3.552	0.010
3.555	0.010
3.557	0.000
3.559	0.000
3.562	0.000
3.564	0.000
3.567	0.000
3.569	0.000
3.572	0.010
3.574	0.010
3.577	0.010
3.579	0.000
3.582	0.000
3.584	0.010
3.587	0.010
3.589	0.010
3.592	0.010
3.594	0.010
3.596	0.010
3.599	0.000
3.601	0.000
3.604	0.010
3.607	0.010
3.609	0.010
3.612	0.020
3.614	0.010
3.617	0.010
3.619	0.010
3.622	0.010
3.624	0.010
3.627	0.010
3.629	0.020
3.632	0.010
3.634	0.010
3.637	0.010
3.639	0.000
3.642	0.000
3.645	0.000
3.647	0.010
3.650	0.010
3.652	0.010
3.655	0.010
3.657	0.010
3.660	0.010
3.663	0.010
3.665	0.010
3.668	0.010
3.670	0.010
3.673	0.000
3.676	0.000
3.678	0.000
3.681	0.010
3.683	0.010
3.686	0.010
3.689	0.000
3.691	0.000
3.694	0.010
3.697	0.010
3.699	0.000
3.702	0.010
3.704	0.010
3.707	0.010
3.710	0.000
3.712	0.000
3.715	0.000
3.718	0.010
3.720	0.010
3.723	0.010
3.726	0.010
3.728	0.010
3.731	0.000
3.734	0.010
3.737	0.010
3.739	0.010
3.742	0.010
3.745	0.000
3.747	0.010
3.750	0.000
3.753	0.000
3.755	0.000
3.758	0.010
3.761	0.010
3.764	0.010
3.766	0.010
3.769	0.010
3.772	0.010
3.775	0.010
3.777	0.010
3.780	0.010
3.783	0.010
3.786	0.020
3.788	0.020
3.791	0.010
3.794	0.010
3.797	0.020
3.800	0.020
3.802	0.010
3.805	0.010
3.808	0.010
3.811	0.010
3.813	0.000
3.816	0.000
3.819	0.000
3.822	0.000
3.825	0.000
3.828	0.010
3.830	0.010
3.833	0.000
3.836	0.010
3.839	0.010
3.842	0.010
3.845	0.010
3.847	0.010
3.850	0.000
3.853	0.000
3.856	0.000
3.859	0.010
3.862	0.010
3.865	0.020
3.868	0.020
3.870	0.010
3.873	0.000
3.876	0.000
3.879	0.000
3.882	0.000
3.885	0.000
3.888	0.000
3.891	0.010
3.894	0.010
3.897	0.010
3.900	0.000
3.903	0.010
3.905	0.010
3.908	0.010
3.911	0.010
3.914	0.000
3.917	0.010
3.920	0.010
3.923	0.010
3.926	0.010
3.929	0.010
3.932	0.010
3.935	0.000
3.938	0.000
3.941	0.010
3.944	0.010
3.947	0.000
3.950	0.000
3.953	0.000
3.956	0.010
3.959	0.010
3.962	0.010
3.965	0.010
3.968	0.010
3.971	0.010
3.974	0.010
3.977	0.010
3.980	0.000
3.984	0.000
3.987	0.000
3.990	0.000
3.993	0.000
3.996	0.000
3.999	0.010
4.002	0.010
4.005	0.010
4.008	0.010
4.011	0.010
4.014	0.010
4.017	0.000
4.021	0.000
4.024	0.000
4.027	0.000
4.030	0.000
4.033	0.010
4.036	0.010
4.039	0.010
4.043	0.010
4.046	0.010
4.049	0.010
4.052	0.010
4.055	0.010
4.058	0.010
4.062	0.010
4.065	0.010
4.068	0.000
4.071	0.000
4.074	0.010
4.078	0.010
4.081	0.010
4.084	0.010
4.087	0.010
4.090	0.010
4.094	0.010
4.097	0.010
4.100	0.010
4.103	0.010
4.107	0.010
4.110	0.010
4.113	0.010
4.116	0.010
4.120	0.010
4.123	0.010
4.126	0.010
4.130	0.010
4.133	0.000
4.136	0.000
4.139	0.000
4.143	0.010
4.146	0.010
4.149	0.010
4.153	0.010
4.156	0.020
4.159	0.020
4.163	0.010
4.166	0.010
4.169	0.010
4.173	0.010
4.176	0.010
4.179	0.010
4.183	0.010
4.186	0.010
4.190	0.010
4.193	0.010
4.196	0.000
4.200	0.000
4.203	0.010
4.207	0.020
4.210	0.020
4.213	0.010
4.217	0.010
4.220	0.010
4.224	0.010
4.227	0.000
4.231	0.000
4.234	0.010
4.238	0.010
4.241	0.010
4.245	0.020
4.248	0.020
4.251	0.020
4.255	0.010
4.258	0.010
4.262	0.000
4.265	0.000
4.269	0.000
4.273	0.010
4.276	0.000
4.280	0.000
4.283	0.000
4.287	0.010
4.290	0.010
4.294	0.010
4.297	0.010
4.301	0.010
4.304	0.010
4.308	0.000
4.312	0.000
4.315	0.010
4.319	0.010
4.322	0.010
4.326	0.010
4.330	0.020
4.333	0.020
4.337	0.020
4.340	0.010
4.344	0.010
4.348	0.000
4.351	-0.010
4.355	-0.010
4.359	0.000
4.362	0.010
4.366	0.010
4.370	0.010
4.373	0.020
4.377	0.040
4.381	0.060
4.385	0.090
4.388	0.100
4.392	0.100
4.396	0.080
4.399	0.050
4.403	0.020
4.407	0.010
4.411	0.000
4.414	0.010
4.418	0.010
4.422	0.000
4.426	0.000
4.430	0.000
4.433	0.000
4.437	0.000
4.441	0.000
4.445	0.000
4.449	0.010
4.452	0.020
4.456	0.010
4.460	0.010
4.464	0.010
4.468	0.000
4.472	0.000
4.475	0.010
4.479	0.010
4.483	0.010
4.487	0.000
4.491	0.010
4.495	0.010
4.499	0.010
4.503	0.000
4.507	0.000
4.510	0.000
4.514	0.000
4.518	0.010
4.522	0.010
4.526	0.000
4.530	0.000
4.534	0.000
4.538	0.000
4.542	0.000
4.546	0.000
4.550	0.000
4.554	0.010
4.558	0.010
4.562	0.010
4.566	0.020
4.570	0.020
4.574	0.020
4.578	0.020
4.582	0.010
4.586	0.010
4.590	0.010
4.594	0.010
4.599	0.000
4.603	0.000
4.607	0.000
4.611	0.000
4.615	0.000
4.619	0.010
4.623	0.010
4.627	0.000
4.631	0.000
4.636	0.000
4.640	0.000
4.644	0.000
4.648	0.000
4.652	0.000
4.656	0.010
4.661	0.010
4.665	0.010
4.669	0.010
4.673	0.010
4.677	0.000
4.682	0.000
4.686	0.000
4.690	0.000
4.694	0.000
4.699	0.000
4.703	0.000
4.707	0.000
4.711	0.000
4.716	0.000
4.720	0.000
4.724	0.000
4.729	0.010
4.733	0.010
4.737	0.010
4.742	0.000
4.746	0.000
4.750	0.000
4.755	0.000
4.759	0.000
4.763	0.010
4.768	0.010
4.772	0.010
4.777	0.010
4.781	0.000
4.785	0.000
4.790	0.000
4.794	0.010
4.799	0.010
4.803	0.000
4.808	0.000
4.812	0.010
4.816	0.010
4.821	0.010
4.825	0.010
4.830	0.010
4.834	0.020
4.839	0.020
4.844	0.020
4.848	0.010
4.853	0.010
4.857	0.010
4.862	0.010
4.866	0.010
4.871	0.010
4.875	0.000
4.880	0.000
4.885	0.000
4.889	0.000
4.894	0.000
4.898	0.000
4.903	0.000
4.908	0.000
4.912	0.000
4.917	0.000
4.922	0.000
4.926	0.010
4.931	0.000
4.936	-0.010
4.940	-0.010
4.945	0.000
4.950	0.010
4.955	0.010
4.959	0.010
4.964	0.010
4.969	0.010
4.974	0.010
4.978	0.010
4.983	0.010
4.988	0.010
4.993	0.010
4.998	0.010
5.002	0.000
5.007	0.000
5.012	0.010
5.017	0.000
5.022	0.000
5.027	0.010
5.032	0.010
5.036	0.010
5.041	0.000
5.046	0.000
5.051	0.010
5.056	0.010
5.061	0.010
5.066	0.010
5.071	0.010
5.076	0.010
5.081	0.000
5.086	0.000
5.091	0.010
5.096	0.010
5.101	0.000
5.106	0.000
5.111	0.010
5.116	0.010
5.121	0.000
5.126	0.000
5.131	0.000
5.136	0.010
5.141	0.000
5.147	0.000
5.152	0.010
5.157	0.010
5.162	0.010
5.167	0.010
5.172	0.010
5.177	0.010
5.183	0.000
5.188	0.010
5.193	0.010
5.198	0.010
5.203	0.000
5.209	0.000
5.214	0.000
5.219	0.000
5.224	0.010
5.230	0.010
5.235	0.000
5.240	0.000
5.245	0.010
5.251	0.010
5.256	0.010
5.261	0.010
5.267	0.000
5.272	0.000
5.278	0.010
5.283	0.010
5.288	0.000
5.294	0.000
5.299	0.000
5.305	0.000
5.310	0.010
5.315	0.020
5.321	0.010
5.326	0.010
5.332	0.000
5.337	0.010
5.343	0.010
5.348	0.010
5.354	0.010
5.359	0.000
5.365	0.000
5.371	0.000
5.376	0.000
5.382	0.000
5.387	0.000
5.393	0.010
5.398	0.010
5.404	0.010
5.410	0.000
5.415	0.010
5.421	0.020
5.427	0.040
5.432	0.090
5.438	0.180
5.444	0.330
5.450	0.490
5.455	0.540
5.461	0.430
5.467	0.250
5.473	0.110
5.478	0.050
5.484	0.020
5.490	0.010
5.496	0.010
5.502	0.010
5.507	0.010
5.513	0.000
5.519	0.000
5.525	0.010
5.531	0.010
5.537	0.010
5.543	0.000
5.549	0.000
5.555	0.000
5.561	0.000
5.567	0.000
5.573	0.010
5.579	0.010
5.585	0.000
5.591	0.000
5.597	0.000
5.603	0.000
5.609	0.000
5.615	0.000
5.621	0.000
5.627	0.000
5.633	0.000
5.639	0.000
5.645	0.010
5.652	0.010
5.658	0.010
5.664	0.010
5.670	0.010
5.676	0.000
5.683	0.000
5.689	0.000
5.695	0.000
5.701	0.000
5.708	0.000
5.714	0.000
5.720	0.000
5.727	0.010
5.733	0.010
5.739	0.010
5.746	0.010
5.752	0.010
5.758	0.000
5.765	0.000
5.771	0.000
5.778	0.000
5.784	0.010
5.791	0.010
5.797	0.010
5.804	0.010
5.810	0.010
5.817	0.010
5.823	0.010
5.830	0.000
5.836	0.000
5.843	0.000
5.849	0.010
5.856	0.010
5.863	0.010
5.869	0.010
5.876	0.000
5.883	0.000
5.889	0.010
5.896	0.010
5.903	0.010
5.909	0.010
5.916	0.000
5.923	0.000
5.930	0.000
5.936	0.000
5.943	0.000
5.950	0.010
5.957	0.020
5.964	0.020
5.971	0.020
5.978	0.010
5.984	0.010
5.991	0.000
5.998	0.000
6.005	0.010
6.012	0.010
6.019	0.010
6.026	0.020
6.033	0.010
6.040	0.010
6.047	0.000
6.054	0.010
6.061	0.010
6.069	0.010
6.076	0.010
6.083	0.010
6.090	0.010
6.097	0.010
6.104	0.010
6.111	0.010
6.119	0.010
6.126	0.000
6.133	0.010
6.140	0.010
6.148	0.010
6.155	0.010
6.162	0.010
6.170	0.010
6.177	0.010
6.184	0.010
6.192	0.010
6.199	0.010
6.207	0.010
6.214	0.010
6.222	0.010
6.229	0.010
6.237	0.010
6.244	0.020
6.252	0.020
6.259	0.020
6.267	0.010
6.274	0.010
6.282	0.010
6.290	0.010
6.297	0.010
6.305	0.010
6.312	0.000
6.320	0.000
6.328	0.000
6.336	0.010
6.343	0.010
6.351	0.010
6.359	0.010
6.367	0.010
6.375	0.010
6.382	0.000
6.390	0.000
6.398	0.010
6.406	0.010
6.414	0.010
6.422	0.000
6.430	0.000
6.438	0.010
6.446	0.010
6.454	0.010
6.462	0.010
6.470	0.010
6.478	0.010
6.486	0.000
6.494	0.000
6.503	0.000
6.511	0.000
6.519	0.000
6.527	0.000
6.535	0.010
6.544	0.010
6.552	0.010
6.560	0.010
6.568	0.000
6.577	0.000
6.585	0.010
6.594	0.010
6.602	0.010
6.610	0.010
6.619	0.010
6.627	0.010
6.636	0.000
6.644	0.000
6.653	0.000
6.661	0.000
6.670	0.010
6.679	0.010
6.687	0.010
6.696	0.010
6.704	0.010
6.713	0.000
6.722	0.000
6.731	0.000
6.739	0.010
6.748	0.010
6.757	0.020
6.766	0.020
6.775	0.020
6.783	0.020
6.792	0.020
6.801	0.010
6.810	0.010
6.819	0.010
6.828	0.010
6.837	0.010
6.846	0.020
6.855	0.020
6.864	0.010
6.873	0.010
6.883	0.010
6.892	0.010
6.901	0.010
6.910	0.010
6.919	0.010
6.929	0.010
6.938	0.010
6.947	0.010
6.956	0.000
6.966	0.000
6.975	0.000
6.985	0.000
6.994	0.000
7.003	0.000
7.013	0.000
7.022	0.000
7.032	0.000
7.042	0.000
7.051	0.010
7.061	0.010
7.070	0.010
7.080	0.010
7.090	0.010
7.099	0.010
7.109	0.010
7.119	0.010
7.129	0.000
7.138	0.000
7.148	0.000
7.158	0.010
7.168	0.010
7.178	0.010
7.188	0.010
7.198	0.000
7.208	0.000
7.218	0.000
7.228	0.010
7.238	0.000
7.248	0.000
7.258	0.000
7.269	0.000
7.279	0.000
7.289	0.000
7.299	0.010
7.310	0.010
7.320	0.010
7.330	0.010
7.341	0.010
7.351	0.010
7.362	0.000
7.372	0.000
7.383	0.000
7.393	0.010
7.404	0.010
7.414	0.010
7.425	0.010
7.435	0.010
7.446	0.020
7.457	0.010
7.468	0.000
7.478	0.000
7.489	0.010
7.500	0.010
7.511	0.010
7.522	0.010
7.533	0.010
7.544	0.000
7.555	0.000
7.566	0.000
7.577	0.000
7.588	0.000
7.599	0.000
7.610	0.000
7.621	0.000
7.633	0.010
7.644	0.010
7.655	0.010
7.666	0.010
7.678	0.010
7.689	0.010
7.701	0.010
7.712	0.010
7.724	0.010
7.735	0.000
7.747	0.000
7.758	0.000
7.770	0.010
7.782	0.010
7.793	0.010
7.805	0.010
7.817	0.000
7.829	0.000
7.840	0.000
7.852	0.000
7.864	0.000
7.876	0.010
7.888	0.010
7.900	0.010
7.912	0.010
7.924	0.010
7.937	0.010
7.949	0.010
7.961	0.000
7.973	0.000
7.985	0.000
7.998	0.000
8.010	0.010
8.023	0.010
8.035	0.010
8.047	0.010
8.060	0.010
8.073	0.000
8.085	0.000
8.098	0.000
8.110	0.000
8.123	0.000
8.136	0.010
8.149	0.010
8.161	0.010
8.174	0.010
8.187	0.000
8.200	0.000
8.213	0.010
8.226	0.010
8.239	0.010
8.252	0.010
8.266	0.010
8.279	0.010
8.292	0.010
8.305	0.010
8.319	0.000
8.332	0.000
8.346	0.010
8.359	0.010
8.372	0.010
8.386	0.010
8.400	0.000
8.413	0.000
8.427	0.000
8.441	0.000
8.454	0.000
8.468	0.000
8.482	0.010
8.496	0.020
8.510	0.010
8.524	0.010
8.538	0.010
8.552	0.010
8.566	0.010
8.580	0.010
8.595	0.010
8.609	0.000
8.623	0.000
8.638	0.000
8.652	0.010
8.666	0.010
8.681	0.010
8.696	0.010
8.710	0.010
8.725	0.010
8.740	0.000
8.754	0.000
8.769	0.000
8.784	0.000
8.799	0.000
8.814	0.000
8.829	0.010
8.844	0.010
8.859	0.010
8.874	0.000
8.889	0.000
8.905	0.000
8.920	0.000
8.935	0.000
8.951	0.010
8.966	0.010
8.982	0.020
8.997	0.010
9.013	0.000
9.029	0.010
9.045	0.010
9.060	0.010
9.076	0.010
9.092	0.000
9.108	0.000
9.124	0.000
9.140	0.020
9.156	0.020
9.173	0.000
9.189	0.000
9.205	0.000
9.222	0.000
9.238	0.010
9.255	0.020
9.271	0.020
9.288	0.020
9.304	0.010
9.321	0.000
9.338	0.000
9.355	0.010
9.372	0.020
9.389	0.020
9.406	0.020
9.423	0.010
9.440	0.010
9.457	0.000
9.474	0.000
9.492	0.000
9.509	0.000
9.527	0.010
9.544	0.020
9.562	0.020
9.580	0.020
9.597	0.020
9.615	0.020
9.633	0.030
9.651	0.020
9.669	0.000
9.687	-0.010
9.705	-0.010
9.723	0.000
9.742	0.010
9.760	0.020
9.778	0.020
9.797	0.020
9.815	0.010
9.834	0.000
9.853	0.010
9.871	0.020
9.890	0.020
9.909	0.020
9.928	0.020
9.947	0.010
9.966	0.000
9.986	0.000
10.005	0.000
10.024	0.010
10.044	0.010
10.063	0.020
10.083	0.030
10.102	0.010
10.122	0.000
10.142	0.000
10.162	0.010
10.182	0.020
10.202	0.020
10.222	0.020
10.242	0.020
10.262	0.010
10.283	0.010
10.303	0.020
10.324	0.020
10.344	0.010
10.365	0.010
10.386	0.010
10.407	0.010
10.428	0.010
10.449	0.010
10.470	0.010
10.491	0.000
10.512	0.010
10.534	0.020
10.555	0.020
10.577	0.010
10.598	0.000
10.620	0.000
10.642	0.010
10.664	0.010
10.686	0.020
10.708	0.020
10.730	0.020
10.752	0.010
10.774	0.010
10.797	0.010
10.819	0.010
10.842	0.010
10.865	0.000
10.888	0.010
10.911	0.010
10.934	0.010
10.957	0.010
10.980	0.010
11.003	0.020
11.027	0.020
11.050	0.010
11.074	0.010
11.098	0.010
11.121	0.010
11.145	0.010
11.169	0.020
11.193	0.030
11.218	0.030
11.242	0.040
11.266	0.050
11.291	0.060
11.316	0.090
11.340	0.120
11.365	0.170
11.390	0.270
11.415	0.390
11.440	0.510
11.466	0.590
11.491	0.610
11.517	0.610
11.542	0.610
11.568	0.620
11.594	0.650
11.620	0.690
11.646	0.780
11.672	0.930
11.699	1.190
11.725	1.570
11.752	2.160
11.779	3.140
11.805	4.790
11.832	7.640
11.859	12.680
11.887	21.330
11.914	34.690
11.941	51.750
11.969	68.250
11.997	79.150
12.024	82.810
12.052	81.670
12.081	79.290
12.109	77.770
12.137	77.680
12.166	78.780
12.194	80.590
12.223	82.650
12.252	84.610
12.281	86.220
12.310	87.380
12.339	88.110
12.369	88.500
12.398	88.630
12.428	88.590
12.458	88.440
12.488	88.250
12.518	88.080
12.548	87.930
12.579	87.820
12.610	87.790
12.640	87.820
12.671	87.890
12.702	88.000
12.734	88.140
12.765	88.310
12.796	88.490
12.828	88.640
12.860	88.770
12.892	88.880
12.924	88.920
12.956	88.900
12.989	88.810
13.022	88.650
13.054	88.420
13.087	88.120
13.120	87.750
13.154	87.330
13.187	86.870
13.221	86.390
13.255	85.940
13.289	85.550
13.323	85.250
13.357	85.030
13.392	84.890
13.426	84.830
13.461	84.850
13.496	85.000
13.531	85.260
13.567	85.590
13.602	86.010
13.638	86.470
13.674	86.830
13.710	86.900
13.747	86.360
13.783	84.710
13.820	81.370
13.857	75.850
13.894	68.070
13.932	58.550
13.969	48.230
14.007	38.180
14.045	29.260
14.083	21.930
14.121	16.230
14.160	11.950
14.199	8.790
14.238	6.510
14.277	4.860
14.316	3.670
14.356	2.790
14.396	2.130
14.436	1.640
14.476	1.300
14.517	1.030
14.558	0.820
14.599	0.670
14.640	0.570
14.681	0.480
14.723	0.400
14.765	0.340
14.807	0.300
14.850	0.270
14.892	0.230
14.935	0.200
14.978	0.190
15.022	0.170
15.065	0.140
15.109	0.100
15.154	0.080
15.198	0.080
15.243	0.090
15.288	0.090
15.333	0.080
15.378	0.070
15.424	0.060
15.470	0.060
15.517	0.060
15.563	0.060
15.610	0.050
15.657	0.060
15.705	0.050
15.752	0.040
15.801	0.050
15.849	0.070
15.897	0.070
15.946	0.070
15.995	0.080
16.045	0.080
16.095	0.080
16.145	0.070
16.195	0.070
16.246	0.070
16.297	0.060
16.349	0.060
16.400	0.040
16.453	0.030
16.505	0.040
16.558	0.050
16.611	0.040
16.664	0.020
16.718	0.000
16.772	0.000
16.827	0.020
16.881	0.040
16.937	0.050
16.992	0.060
17.048	0.040
17.104	0.010
17.161	0.030
17.218	0.060
17.275	0.060
17.333	0.050
17.391	0.060
17.450	0.070
17.509	0.060
17.568	0.040
17.628	0.010
17.688	0.010
17.748	0.020
17.809	0.040
17.871	0.040
17.933	0.010
17.995	-0.020
18.058	0.010
18.121	0.070
18.184	0.080
18.249	0.040
18.313	0.030
18.378	0.060
18.443	0.100
18.509	0.120
18.575	0.080
18.642	0.040
18.709	0.010
18.777	-0.010
18.846	-0.010
18.914	0.020
18.984	0.060
19.053	0.090
19.124	0.080
19.195	0.080
19.266	0.080
19.338	0.090
19.410	0.070
19.483	0.050
19.557	0.070
19.631	0.060
19.706	0.000
19.781	-0.020
19.857	-0.020
19.933	0.010
20.010	0.070
20.087	0.120
20.165	0.140
20.244	0.120
20.324	0.070
20.404	0.040
20.484	0.070
20.566	0.120
20.648	0.120
20.730	0.110
20.813	0.090
20.897	0.060
20.982	0.050
21.067	0.070
21.153	0.110
21.240	0.120
21.327	0.090
21.416	0.070
21.504	0.080
21.594	0.100
21.684	0.150
21.776	0.160
21.867	0.110
21.960	0.090
22.053	0.100
22.147	0.110
22.242	0.120
22.338	0.140
22.435	0.100
22.533	0.030
22.631	0.050
22.730	0.110
22.831	0.110
22.932	0.070
23.034	0.00
23.136	-0.01
23.240	0.00
23.345	0.00
23.451	0.00
23.557	0.00
23.665	-0.01
23.773	-0.01
23.883	-0.01
23.993	-0.01
24.105	-0.01
24.218	-0.01
24.331	0.00
24.446	0.02
24.562	0.03
24.679	0.04
24.797	0.04
24.916	0.05
25.036	0.04
25.158	0.04
25.281	0.03
25.405	0.02
25.530	0.01
25.656	0.01
25.784	0.01
25.913	0.01
26.043	0.01
26.175	0.01
26.307	0.01
26.442	0.00
26.577	-0.01
26.714	-0.01
26.853	0.00
26.993	0.01
27.133	0.02
27.276	0.03
27.421	0.04
27.566	0.04
27.714	0.03
27.863	0.02
28.014	0.02
28.166	0.01
28.320	0.02
28.475	0.02
28.633	0.02
28.792	0.02
28.953	0.01
29.115	0.01
29.280	0.02
29.446	0.02
29.615	0.02
29.785	0.03
29.957	0.04
30.131	0.05
30.308	0.05
30.486	0.05
30.666	0.04
30.848	0.04
31.033	0.03
31.220	0.02
31.409	0.01
31.601	0.00
31.794	-0.01
31.991	-0.02
32.190	-0.02
32.391	0.00
32.595	0.01
32.801	0.02
33.010	0.02
33.221	0.02
33.436	0.01
33.653	0.01
33.873	0.01
34.096	0.01
34.322	0.01
34.551	0.01
34.783	0.01
35.018	0.02
35.256	0.02
35.496	0.02
35.741	0.02
35.989	0.01
36.241	0.02
36.496	0.03
36.755	0.03
37.018	0.03
37.284	0.00
37.554	-0.03
37.829	-0.03
38.107	-0.02
38.389	-0.01
38.676	0.00
38.967	0.00
39.262	0.00
39.562	-0.01
39.866	-0.01
40.175	0.00
40.489	0.00
40.808	0.01
41.132	0.01
41.461	0.01
41.796	0.01
42.134	0.01
42.479	0.01
42.830	0.01
43.187	0.00
43.550	-0.01
43.919	-0.02
44.295	-0.02
44.677	-0.03
45.065	-0.02
45.461	-0.02
45.863	-0.01
46.273	0.00
46.690	0.01
47.114	0.01
47.547	0.01
47.987	0.01
48.436	0.00
48.893	-0.01
49.358	-0.01
49.833	-0.01
50.317	0.01
50.810	0.02
51.311	0.03
51.824	0.04
52.348	0.05
52.882	0.05
53.427	0.03
53.984	0.02
54.552	0.00
55.133	-0.01
55.726	-0.02
56.332	-0.01
56.951	-0.02
57.584	-0.01
58.231	0.01
58.893	0.02
59.570	0.02
60.263	0.02
60.972	0.01
61.698	0.00
62.441	0.00
63.203	0.00
63.984	0.01
64.784	0.02
65.604	0.02
66.441	0.02
67.304	0.02
68.190	0.01
69.099	0.01
70.033	0.00
70.992	0.00
71.979	0.00
72.993	-0.01
74.036	-0.01
75.109	-0.01
76.214	-0.01
77.351	0.00
78.524	0.01
79.732	0.02
80.978	0.02
82.264	0.02
83.591	0.02
84.962	0.02
86.378	0.02
87.843	0.02
89.358	0.03
90.926	0.03
92.541	0.03
94.224	0.03
95.969	0.02
97.780	0.01
99.661	0.00
101.616	0.01
103.648	0.02
105.764	0.02
107.968	0.02
110.266	0.02
112.663	0.00
115.168	-0.01
117.786	-0.02
120.525	-0.02
123.396	-0.01
126.406	0.00
129.567	0.01
132.890	0.02
136.388	0.02
140.076	0.02
143.968	0.01
148.082	0.01
152.439	0.00
157.035	-0.01
161.943	-0.01
167.168	-0.01
172.741	0.00
178.699	0.02
185.082	0.03
191.939	0.04
199.322	0.04